image,correct_response,condition,trial_id,.thisRepN,.thisTrialN,.thisN,.thisIndex,thisRow.t,notes,Practice_InstrStart_globalClock,Practice_InstrStart_coreTime,Practice_InstrStart_time,PracticeStartRT,stimulus_onset_blockClock,stimulus_onset_coreTime,stimulus_onset_time,ITI_onset_trialClock,ITI_onset_blockClock,ITI_onset_coreTime,ITI_onset_time,stimulus,stage,participant,session,trial_num,correct_response0,response,correct,RT,FixationOnTime,Test_InstrStart_globalClock,Test_InstrStart_blockClock,Test_InstrStart_coreTime,Test_InstrStart_time,TestStartRT,TestBlock_InstrStart_globalClock,TestBlock_InstrStart_blockClock,TestBlock_InstrStart_coreTime,TestBlock_InstrStart_time,TestBlockStartRT,current_block,participant,session,doPractice,date,expName,psychopyVersion,coreTime,
,,,,0,-1,-1,0,,,8.00006091594696e-06,15.588463800027966,2025-02-28_09:26:07.354541,6.291545000160113,,,,,,,,,,644299,001,,,,,,,,,,,,,,,,,,644299,001,True,2025-02-28_092557.483234,KidFlanker,2022.2.5,1969-12-31_160005.717063,
images/rrlrr.png,"['left', '1', 'num_1']",incongruent,stim,0,-1,-1,0,,,,,,,6.34441710007377,21.91751639987342,2025-02-28_09:26:13.684103,2.54767100000754,8.892095000017434,24.46518459985964,2025-02-28_09:26:16.231364,images/rrlrr.png,practice,644299,001,0,left,None,False,None,2.309523190863449,,,,,,,,,,,,644299,001,True,2025-02-28_092557.483234,KidFlanker,2022.2.5,1969-12-31_160005.717063,
images/lllll.png,"['left', '1', 'num_1']",congruent,stim,0,-1,-1,0,,,,,,,11.7541271999944,27.32722939993255,2025-02-28_09:26:19.093211,1.175891499966383,12.930025400128216,28.503115399973467,2025-02-28_09:26:20.268905,images/lllll.png,practice,644299,001,1,left,left,True,0.6289462000131607,2.1809114736725395,,,,,,,,,,,,644299,001,True,2025-02-28_092557.483234,KidFlanker,2022.2.5,1969-12-31_160005.717063,
images/lllll.png,"['left', '1', 'num_1']",congruent,stim,0,-1,-1,0,,,,,,,15.660417800070718,31.233514599967748,2025-02-28_09:26:22.999007,1.267215499887243,16.927646100055426,32.500735899899155,2025-02-28_09:26:24.266378,images/lllll.png,practice,644299,001,2,left,left,True,0.7208698999602348,2.453497622912842,,,,,,,,,,,,644299,001,True,2025-02-28_092557.483234,KidFlanker,2022.2.5,1969-12-31_160005.717063,
images/llrll.png,"['right', '2', 'num_2']",incongruent,stim,0,-1,-1,0,,,,,,,19.93135550012812,35.504451599903405,2025-02-28_09:26:27.270974,1.2780649999622256,21.209424700122327,36.782511099940166,2025-02-28_09:26:28.548329,images/llrll.png,practice,644299,001,3,right,right,True,0.7307386000175029,2.379044798673171,,,,,,,,,,,,644299,001,True,2025-02-28_092557.483234,KidFlanker,2022.2.5,1969-12-31_160005.717063,
images/rrrrr.png,"['right', '2', 'num_2']",congruent,stim,0,-1,-1,0,,,,,,,24.13815400004387,39.71125789987855,2025-02-28_09:26:31.477323,1.2241368999239057,25.362292600097135,40.93538279994391,2025-02-28_09:26:32.701245,images/rrrrr.png,practice,644299,001,4,right,right,True,0.677715600002557,1.8389950388680587,,,,,,,,,,,,644299,001,True,2025-02-28_092557.483234,KidFlanker,2022.2.5,1969-12-31_160005.717063,
,,,,0,-1,-1,0,,,,,,,,,,,,,,,,644299,001,,,,,,,27.760053100064397,2.8999987989664078e-05,43.348523000022396,2025-02-28_09:26:35.114995,1.788721299963072,,,,,,,644299,001,True,2025-02-28_092557.483234,KidFlanker,2022.2.5,1969-12-31_160005.717063,
,,,,0,-1,-1,0,,,,,,,,,,,,,,,,644299,001,,,,,,,,,,,,29.578820700058714,1.800013706088066e-05,45.1672803000547,2025-02-28_09:26:36.933108,21.851658400148153,1,644299,001,True,2025-02-28_092557.483234,KidFlanker,2022.2.5,1969-12-31_160005.717063,
images/rrlrr.png,"['left', '1', 'num_1']",incongruent,stim,0,-1,-1,0,,,,,,,21.878920800052583,67.04618999990635,2025-02-28_09:26:58.812095,1.5634679000359029,23.44239590014331,68.60965760005638,2025-02-28_09:27:00.375348,images/rrlrr.png,test,644299,001,0,left,left,True,1.5411670999601483,2.309523190863449,,,,,,,,,,,,644299,001,True,2025-02-28_092557.483234,KidFlanker,2022.2.5,1969-12-31_160005.717063,
images/rrrrr.png,"['right', '2', 'num_2']",congruent,stim,0,-1,-1,0,,,,,,,26.301414400106296,71.46868769987486,2025-02-28_09:27:03.234893,0.5314253999385983,26.832847400102764,72.00011090002954,2025-02-28_09:27:03.765782,images/rrrrr.png,test,644299,001,1,right,right,True,0.5086614999454468,2.1809114736725395,,,,,,,,,,,,644299,001,True,2025-02-28_092557.483234,KidFlanker,2022.2.5,1969-12-31_160005.717063,
images/lllll.png,"['left', '1', 'num_1']",congruent,stim,0,-1,-1,0,,,,,,,29.562465000199154,74.72975130006671,2025-02-28_09:27:06.495338,0.709250699961558,30.27172080008313,75.43898830004036,2025-02-28_09:27:07.205429,images/lllll.png,test,644299,001,2,left,left,True,0.6863208999857306,2.453497622912842,,,,,,,,,,,,644299,001,True,2025-02-28_092557.483234,KidFlanker,2022.2.5,1969-12-31_160005.717063,
images/lllll.png,"['left', '1', 'num_1']",congruent,stim,0,-1,-1,0,,,,,,,33.27431600005366,78.4415875999257,2025-02-28_09:27:10.207938,1.0874457000754774,34.36176860006526,79.52903069998138,2025-02-28_09:27:11.294958,images/lllll.png,test,644299,001,3,left,left,True,1.0645314999856055,2.379044798673171,,,,,,,,,,,,644299,001,True,2025-02-28_092557.483234,KidFlanker,2022.2.5,1969-12-31_160005.717063,
images/rrrrr.png,"['right', '2', 'num_2']",congruent,stim,0,-1,-1,0,,,,,,,37.28973250021227,82.45700669987127,2025-02-28_09:27:14.222713,0.5297763000708073,37.819529900094494,82.98680409998633,2025-02-28_09:27:14.752720,images/rrrrr.png,test,644299,001,4,right,right,True,0.5071070999838412,1.8389950388680587,,,,,,,,,,,,644299,001,True,2025-02-28_092557.483234,KidFlanker,2022.2.5,1969-12-31_160005.717063,
images/llrll.png,"['right', '2', 'num_2']",incongruent,stim,0,-1,-1,0,,,,,,,40.20816610008478,85.37543720006943,2025-02-28_09:27:17.141958,0.6090186999645084,40.81719530001283,85.98446189984679,2025-02-28_09:27:17.751007,images/llrll.png,test,644299,001,5,right,right,True,0.5861452000681311,2.3846350651871937,,,,,,,,,,,,644299,001,True,2025-02-28_092557.483234,KidFlanker,2022.2.5,1969-12-31_160005.717063,
images/llrll.png,"['right', '2', 'num_2']",incongruent,stim,0,-1,-1,0,,,,,,,43.75077260006219,88.91804599994794,2025-02-28_09:27:20.683625,0.5793280000798404,44.330123300198466,89.49738679989241,2025-02-28_09:27:21.263436,images/llrll.png,test,644299,001,6,right,right,True,0.5564907998777926,1.9135471937932917,,,,,,,,,,,,644299,001,True,2025-02-28_092557.483234,KidFlanker,2022.2.5,1969-12-31_160005.717063,
images/llrll.png,"['right', '2', 'num_2']",incongruent,stim,0,-1,-1,0,,,,,,,46.79397510015406,91.96124890004285,2025-02-28_09:27:23.727053,0.5634085000492632,47.35739000001922,92.5246538000647,2025-02-28_09:27:24.291055,images/llrll.png,test,644299,001,7,right,right,True,0.560885600047186,1.7146568281826147,,,,,,,,,,,,644299,001,True,2025-02-28_092557.483234,KidFlanker,2022.2.5,1969-12-31_160005.717063,
images/rrlrr.png,"['left', '1', 'num_1']",incongruent,stim,0,-1,-1,0,,,,,,,49.61927940021269,94.78662669984624,2025-02-28_09:27:26.553173,0.7134461000096053,50.332723800092936,95.49999230005778,2025-02-28_09:27:27.265936,images/rrlrr.png,test,644299,001,8,left,left,True,0.6904007000848651,2.304103283163239,,,,,,,,,,,,644299,001,True,2025-02-28_092557.483234,KidFlanker,2022.2.5,1969-12-31_160005.717063,
images/llrll.png,"['right', '2', 'num_2']",incongruent,stim,0,-1,-1,0,,,,,,,53.18724000011571,98.35451520001516,2025-02-28_09:27:30.120286,0.8298673999961466,54.017113000154495,99.1843759000767,2025-02-28_09:27:30.950420,images/llrll.png,test,644299,001,9,right,right,True,0.8070812998339534,1.5010645879747062,,,,,,,,,,,,644299,001,True,2025-02-28_092557.483234,KidFlanker,2022.2.5,1969-12-31_160005.717063,
images/rrlrr.png,"['left', '1', 'num_1']",incongruent,stim,0,-1,-1,0,,,,,,,56.069391400087625,101.23666519997641,2025-02-28_09:27:33.002933,0.6452488000504673,56.714700900018215,101.88197820005007,2025-02-28_09:27:33.648189,images/rrlrr.png,test,644299,001,10,left,left,True,0.622636100044474,1.9820700803876223,,,,,,,,,,,,644299,001,True,2025-02-28_092557.483234,KidFlanker,2022.2.5,1969-12-31_160005.717063,
images/rrlrr.png,"['left', '1', 'num_1']",incongruent,stim,0,-1,-1,0,,,,,,,59.24882010021247,104.41609539999627,2025-02-28_09:27:36.181963,0.6051933001726866,59.854017900070176,105.02128079999238,2025-02-28_09:27:36.787708,images/rrlrr.png,test,644299,001,11,left,left,True,0.5822149000596255,1.8306344468714086,,,,,,,,,,,,644299,001,True,2025-02-28_092557.483234,KidFlanker,2022.2.5,1969-12-31_160005.717063,
images/rrlrr.png,"['left', '1', 'num_1']",incongruent,stim,0,-1,-1,0,,,,,,,62.23682860005647,107.40409759990871,2025-02-28_09:27:39.169684,0.6914814000483602,62.92832100018859,108.09558649989776,2025-02-28_09:27:39.861193,images/rrlrr.png,test,644299,001,12,left,left,True,0.6671116999350488,1.9644733238786851,,,,,,,,,,,,644299,001,True,2025-02-28_092557.483234,KidFlanker,2022.2.5,1969-12-31_160005.717063,
images/lllll.png,"['left', '1', 'num_1']",congruent,stim,0,-1,-1,0,,,,,,,65.44440710009076,110.61167829995975,2025-02-28_09:27:42.377272,0.5920720000285655,66.03648980008438,111.203756300034,2025-02-28_09:27:42.969454,images/lllll.png,test,644299,001,13,left,left,True,0.5692511999513954,1.7066363479956475,,,,,,,,,,,,644299,001,True,2025-02-28_092557.483234,KidFlanker,2022.2.5,1969-12-31_160005.717063,
images/lllll.png,"['left', '1', 'num_1']",congruent,stim,0,-1,-1,0,,,,,,,68.29453070019372,113.46180230006576,2025-02-28_09:27:45.227930,0.6457007999997586,68.94023900013417,114.1075017999392,2025-02-28_09:27:45.873824,images/lllll.png,test,644299,001,14,left,left,True,0.6227907000575215,2.399619119854194,,,,,,,,,,,,644299,001,True,2025-02-28_092557.483234,KidFlanker,2022.2.5,1969-12-31_160005.717063,
images/rrrrr.png,"['right', '2', 'num_2']",congruent,stim,0,-1,-1,0,,,,,,,71.89100509998389,117.05827490007505,2025-02-28_09:27:48.824635,0.5537069998681545,72.4447211001534,117.61198289995082,2025-02-28_09:27:49.378075,images/rrrrr.png,test,644299,001,15,right,right,True,0.5313764999154955,1.5384771751284387,,,,,,,,,,,,644299,001,True,2025-02-28_092557.483234,KidFlanker,2022.2.5,1969-12-31_160005.717063,
images/rrrrr.png,"['right', '2', 'num_2']",congruent,stim,0,-1,-1,0,,,,,,,74.53779339999892,119.70506120007485,2025-02-28_09:27:51.471396,0.6109156999737024,75.14871550002135,120.31597830005921,2025-02-28_09:27:52.082324,images/rrrrr.png,test,644299,001,16,right,right,True,0.5880197000224143,2.1097679270280834,,,,,,,,,,,,644299,001,True,2025-02-28_092557.483234,KidFlanker,2022.2.5,1969-12-31_160005.717063,
images/rrrrr.png,"['right', '2', 'num_2']",congruent,stim,0,-1,-1,0,,,,,,,77.81235270015895,122.97962359990925,2025-02-28_09:27:54.745633,0.4768121999222785,78.28917400003411,123.45643629995175,2025-02-28_09:27:55.222796,images/rrrrr.png,test,644299,001,17,right,right,True,0.45413940004073083,1.7523527905950107,,,,,,,,,,,,644299,001,True,2025-02-28_092557.483234,KidFlanker,2022.2.5,1969-12-31_160005.717063,
images/rrrrr.png,"['right', '2', 'num_2']",congruent,stim,0,-1,-1,0,,,,,,,80.59505240013823,125.76240550004877,2025-02-28_09:27:57.528306,0.6311986998189241,81.22625609999523,126.39351890003309,2025-02-28_09:27:58.159790,images/rrrrr.png,test,644299,001,18,right,right,True,0.6082843998447061,1.7797930480802706,,,,,,,,,,,,644299,001,True,2025-02-28_092557.483234,KidFlanker,2022.2.5,1969-12-31_160005.717063,
images/llrll.png,"['right', '2', 'num_2']",incongruent,stim,0,-1,-1,0,,,,,,,83.55698790005408,128.72425609990023,2025-02-28_09:28:00.489918,0.6214767000637949,84.178470000159,129.3457319000736,2025-02-28_09:28:01.112097,images/llrll.png,test,644299,001,19,right,right,True,0.5989549001678824,2.421985687614514,,,,,,,,,,,,644299,001,True,2025-02-28_092557.483234,KidFlanker,2022.2.5,1969-12-31_160005.717063,
,,,,0,-1,-1,0,,,,,,,,,,,,,,,,644299,001,,,,,,,,,,,,116.7474112000782,2.71000899374485e-05,132.3358811000362,2025-02-28_09:28:04.101989,1.1532350000925362,2,644299,001,True,2025-02-28_092557.483234,KidFlanker,2022.2.5,1969-12-31_160005.717063,
images/llrll.png,"['right', '2', 'num_2']",incongruent,stim,0,-1,-1,0,,,,,,,1.1807734000030905,133.51663209986873,2025-02-28_09:28:05.282961,0.8335955999791622,2.0143840999808162,134.3502420000732,2025-02-28_09:28:06.116609,images/llrll.png,test,644299,001,0,right,right,True,0.8107805999461561,2.309523190863449,,,,,,,,,,,,644299,001,True,2025-02-28_092557.483234,KidFlanker,2022.2.5,1969-12-31_160005.717063,
images/rrrrr.png,"['right', '2', 'num_2']",congruent,stim,0,-1,-1,0,,,,,,,4.877491200109944,137.21335119986907,2025-02-28_09:28:08.979742,0.6423365001101047,5.519846000010148,137.85570269986056,2025-02-28_09:28:09.621547,images/rrrrr.png,test,644299,001,1,right,right,True,0.6194341001100838,2.1809114736725395,,,,,,,,,,,,644299,001,True,2025-02-28_092557.483234,KidFlanker,2022.2.5,1969-12-31_160005.717063,
images/rrrrr.png,"['right', '2', 'num_2']",congruent,stim,0,-1,-1,0,,,,,,,8.254254900151864,140.59011420002207,2025-02-28_09:28:12.355685,0.6170393000356853,8.871304600033909,141.20715639996342,2025-02-28_09:28:12.972718,images/rrrrr.png,test,644299,001,2,right,right,True,0.5945399000775069,2.453497622912842,,,,,,,,,,,,644299,001,True,2025-02-28_092557.483234,KidFlanker,2022.2.5,1969-12-31_160005.717063,
images/lllll.png,"['left', '1', 'num_1']",congruent,stim,0,-1,-1,0,,,,,,,11.878652800107375,144.21451959991828,2025-02-28_09:28:15.980051,0.7847843999043107,12.663440400036052,144.99929169984534,2025-02-28_09:28:16.765588,images/lllll.png,test,644299,001,3,left,left,True,0.7620079000480473,2.379044798673171,,,,,,,,,,,,644299,001,True,2025-02-28_092557.483234,KidFlanker,2022.2.5,1969-12-31_160005.717063,
images/llrll.png,"['right', '2', 'num_2']",incongruent,stim,0,-1,-1,0,,,,,,,15.597291000187397,147.93315199995413,2025-02-28_09:28:19.699575,0.8969673998653889,16.49427010002546,148.83012479986064,2025-02-28_09:28:20.595967,images/llrll.png,test,644299,001,4,right,right,True,0.8744294000789523,1.8389950388680587,,,,,,,,,,,,644299,001,True,2025-02-28_092557.483234,KidFlanker,2022.2.5,1969-12-31_160005.717063,
images/lllll.png,"['left', '1', 'num_1']",congruent,stim,0,-1,-1,0,,,,,,,18.846549100009724,151.18241619993933,2025-02-28_09:28:22.948561,0.9553616000339389,19.801912900060415,152.13776359986514,2025-02-28_09:28:23.903826,images/lllll.png,test,644299,001,5,left,left,True,0.9531441000290215,2.3846350651871937,,,,,,,,,,,,644299,001,True,2025-02-28_092557.483234,KidFlanker,2022.2.5,1969-12-31_160005.717063,
images/lllll.png,"['left', '1', 'num_1']",congruent,stim,0,-1,-1,0,,,,,,,22.6960142001044,155.03187799989246,2025-02-28_09:28:26.797523,0.5648113999050111,23.260827200021595,155.59667870006524,2025-02-28_09:28:27.362626,images/lllll.png,test,644299,001,6,left,left,True,0.5422028999309987,1.9135471937932917,,,,,,,,,,,,644299,001,True,2025-02-28_092557.483234,KidFlanker,2022.2.5,1969-12-31_160005.717063,
images/lllll.png,"['left', '1', 'num_1']",congruent,stim,0,-1,-1,0,,,,,,,25.722178700147197,158.05804080003873,2025-02-28_09:28:29.824128,0.5141649998258799,26.23635400016792,158.5722073998768,2025-02-28_09:28:30.337737,images/lllll.png,test,644299,001,7,left,left,True,0.491514699999243,1.7146568281826147,,,,,,,,,,,,644299,001,True,2025-02-28_092557.483234,KidFlanker,2022.2.5,1969-12-31_160005.717063,
images/rrlrr.png,"['left', '1', 'num_1']",incongruent,stim,0,-1,-1,0,,,,,,,28.500677100149915,160.83654249995016,2025-02-28_09:28:32.602223,0.5236768000759184,29.024361100047827,161.36021529999562,2025-02-28_09:28:33.126642,images/rrlrr.png,test,644299,001,8,left,left,True,0.5010929999407381,2.304103283163239,,,,,,,,,,,,644299,001,True,2025-02-28_092557.483234,KidFlanker,2022.2.5,1969-12-31_160005.717063,
images/rrlrr.png,"['left', '1', 'num_1']",incongruent,stim,0,-1,-1,0,,,,,,,31.87966169998981,164.21552359987982,2025-02-28_09:28:35.981466,0.5304830998647958,32.410151900025085,164.74600309995003,2025-02-28_09:28:36.512084,images/rrlrr.png,test,644299,001,9,left,left,True,0.5075586999300867,1.5010645879747062,,,,,,,,,,,,644299,001,True,2025-02-28_092557.483234,KidFlanker,2022.2.5,1969-12-31_160005.717063,
images/rrlrr.png,"['left', '1', 'num_1']",incongruent,stim,0,-1,-1,0,,,,,,,34.45985830016434,166.79572080005892,2025-02-28_09:28:38.561846,0.7238531999755651,35.18372329999693,167.519579899963,2025-02-28_09:28:39.285455,images/rrlrr.png,test,644299,001,10,left,left,True,0.701185799902305,1.9820700803876223,,,,,,,,,,,,644299,001,True,2025-02-28_092557.483234,KidFlanker,2022.2.5,1969-12-31_160005.717063,
images/rrrrr.png,"['right', '2', 'num_2']",congruent,stim,0,-1,-1,0,,,,,,,37.691807500086725,170.02767280000262,2025-02-28_09:28:41.794100,0.6125596999190748,38.30436770012602,170.64021990005858,2025-02-28_09:28:42.406490,images/rrrrr.png,test,644299,001,11,right,right,True,0.6098851999267936,1.8306344468714086,,,,,,,,,,,,644299,001,True,2025-02-28_092557.483234,KidFlanker,2022.2.5,1969-12-31_160005.717063,
images/rrrrr.png,"['right', '2', 'num_2']",congruent,stim,0,-1,-1,0,,,,,,,40.64606350008398,172.98192030005157,2025-02-28_09:28:44.748180,0.5954990000464022,41.241569300182164,173.57742079999298,2025-02-28_09:28:45.342906,images/rrrrr.png,test,644299,001,12,right,right,True,0.5929416001308709,1.9644733238786851,,,,,,,,,,,,644299,001,True,2025-02-28_092557.483234,KidFlanker,2022.2.5,1969-12-31_160005.717063,
images/rrlrr.png,"['left', '1', 'num_1']",incongruent,stim,0,-1,-1,0,,,,,,,43.71770520019345,176.05356599995866,2025-02-28_09:28:47.819761,1.944354600040242,45.66206430015154,177.9979153999593,2025-02-28_09:28:49.763753,images/rrlrr.png,test,644299,001,13,left,left,True,1.9417965000029653,1.7066363479956475,,,,,,,,,,,,644299,001,True,2025-02-28_092557.483234,KidFlanker,2022.2.5,1969-12-31_160005.717063,
images/rrrrr.png,"['right', '2', 'num_2']",congruent,stim,0,-1,-1,0,,,,,,,47.88016659999266,180.21602399996482,2025-02-28_09:28:51.982093,0.5888547000940889,48.46902720001526,180.80487850005738,2025-02-28_09:28:52.571214,images/rrrrr.png,test,644299,001,14,right,right,True,0.5865754999686033,2.399619119854194,,,,,,,,,,,,644299,001,True,2025-02-28_092557.483234,KidFlanker,2022.2.5,1969-12-31_160005.717063,
images/lllll.png,"['left', '1', 'num_1']",congruent,stim,0,-1,-1,0,,,,,,,51.42011330020614,183.75597959989682,2025-02-28_09:28:55.522694,0.44822699995711446,51.86834100005217,184.20419209985994,2025-02-28_09:28:55.970483,images/lllll.png,test,644299,001,15,left,left,True,0.4255772999022156,1.5384771751284387,,,,,,,,,,,,644299,001,True,2025-02-28_092557.483234,KidFlanker,2022.2.5,1969-12-31_160005.717063,
images/rrlrr.png,"['left', '1', 'num_1']",incongruent,stim,0,-1,-1,0,,,,,,,53.96229860000312,186.29815949988551,2025-02-28_09:28:58.064176,0.7325949999503791,54.69490120001137,187.03075179993175,2025-02-28_09:28:58.796298,images/rrlrr.png,test,644299,001,16,left,left,True,0.7096818999852985,2.1097679270280834,,,,,,,,,,,,644299,001,True,2025-02-28_092557.483234,KidFlanker,2022.2.5,1969-12-31_160005.717063,
images/rrlrr.png,"['left', '1', 'num_1']",incongruent,stim,0,-1,-1,0,,,,,,,57.36800290015526,189.70386109990068,2025-02-28_09:29:01.469360,0.6021169000305235,57.97013000003062,190.30598219996318,2025-02-28_09:29:02.072117,images/rrlrr.png,test,644299,001,17,left,left,True,0.5792841999791563,1.7523527905950107,,,,,,,,,,,,644299,001,True,2025-02-28_092557.483234,KidFlanker,2022.2.5,1969-12-31_160005.717063,
images/llrll.png,"['right', '2', 'num_2']",incongruent,stim,0,-1,-1,0,,,,,,,60.275236000074074,192.61109089991078,2025-02-28_09:29:04.377387,0.5854907999746501,60.860737200127915,193.19658760004677,2025-02-28_09:29:04.962482,images/llrll.png,test,644299,001,18,right,right,True,0.5627867998555303,1.7797930480802706,,,,,,,,,,,,644299,001,True,2025-02-28_092557.483234,KidFlanker,2022.2.5,1969-12-31_160005.717063,
images/rrlrr.png,"['left', '1', 'num_1']",incongruent,stim,0,-1,-1,0,,,,,,,63.196154200006276,195.53201689990237,2025-02-28_09:29:07.297903,1.2366955999750644,64.43285800004378,196.76871039997786,2025-02-28_09:29:08.534677,images/rrlrr.png,test,644299,001,19,left,left,True,1.2132302999962121,2.421985687614514,,,,,,,,,,,,644299,001,True,2025-02-28_092557.483234,KidFlanker,2022.2.5,1969-12-31_160005.717063,
,,,,0,-1,-1,0,,,,,,,,,,,,,,,,644299,001,,,,,,,,,,,,184.174000200117,2.4399952962994576e-05,199.76246899995022,2025-02-28_09:29:11.528573,1.0426909001544118,3,644299,001,True,2025-02-28_092557.483234,KidFlanker,2022.2.5,1969-12-31_160005.717063,
images/lllll.png,"['left', '1', 'num_1']",congruent,stim,0,0,0,0,,,,,,,1.0719572000671178,200.83440649998374,2025-02-28_09:29:12.600622,1.9553976999595761,3.027475800132379,202.78995279991068,2025-02-28_09:29:14.556105,images/lllll.png,test,644299,001,0,left,left,True,1.931238800054416,2.309523190863449,,,,,,,,,,,,644299,001,True,2025-02-28_092557.483234,KidFlanker,2022.2.5,1969-12-31_160005.717063,
images/rrrrr.png,"['right', '2', 'num_2']",congruent,stim,0,1,1,1,,,,,,,5.905694300075993,205.66814209986478,2025-02-28_09:29:17.434408,0.4600067001301795,6.365708600031212,206.128149199998,2025-02-28_09:29:17.894406,images/rrrrr.png,test,644299,001,1,right,right,True,0.437383099924773,2.1809114736725395,,,,,,,,,,,,644299,001,True,2025-02-28_092557.483234,KidFlanker,2022.2.5,1969-12-31_160005.717063,
images/lllll.png,"['left', '1', 'num_1']",congruent,stim,0,2,2,2,,,,,,,9.09570170007646,208.85815289989114,2025-02-28_09:29:20.624465,0.8769115000031888,9.972618900006637,209.7350592999719,2025-02-28_09:29:21.501320,images/lllll.png,test,644299,001,2,left,left,True,0.854278199840337,2.453497622912842,,,,,,,,,,,,644299,001,True,2025-02-28_092557.483234,KidFlanker,2022.2.5,1969-12-31_160005.717063,
images/rrlrr.png,"['left', '1', 'num_1']",incongruent,stim,0,3,3,3,,,,,,,12.974335000151768,212.73678669985384,2025-02-28_09:29:24.503133,0.5669499000068754,13.541295800125226,213.30374050000682,2025-02-28_09:29:25.069841,images/rrlrr.png,test,644299,001,3,left,left,True,0.5444430001080036,2.379044798673171,,,,,,,,,,,,644299,001,True,2025-02-28_092557.483234,KidFlanker,2022.2.5,1969-12-31_160005.717063,
images/lllll.png,"['left', '1', 'num_1']",congruent,stim,0,4,4,4,,,,,,,16.4747407999821,216.23719189991243,2025-02-28_09:29:28.002704,0.45393389998935163,16.928681900026277,216.69112289999612,2025-02-28_09:29:28.457393,images/lllll.png,test,644299,001,4,left,left,True,0.4312171000055969,1.8389950388680587,,,,,,,,,,,,644299,001,True,2025-02-28_092557.483234,KidFlanker,2022.2.5,1969-12-31_160005.717063,
images/rrlrr.png,"['left', '1', 'num_1']",incongruent,stim,0,5,5,5,,,,,,,19.32012389996089,219.08257289999165,2025-02-28_09:29:30.848191,0.5838560000993311,19.903992500156164,219.66643609991297,2025-02-28_09:29:31.432641,images/rrlrr.png,test,644299,001,5,left,left,True,0.5612302001100034,2.3846350651871937,,,,,,,,,,,,644299,001,True,2025-02-28_092557.483234,KidFlanker,2022.2.5,1969-12-31_160005.717063,
images/rrrrr.png,"['right', '2', 'num_2']",congruent,stim,0,6,6,6,,,,,,,22.840825600083917,222.6032755000051,2025-02-28_09:29:34.369373,0.48023379989899695,23.321068600052968,223.08351029991172,2025-02-28_09:29:34.849750,images/rrrrr.png,test,644299,001,6,right,right,True,0.45741869998164475,1.9135471937932917,,,,,,,,,,,,644299,001,True,2025-02-28_092557.483234,KidFlanker,2022.2.5,1969-12-31_160005.717063,
images/rrrrr.png,"['right', '2', 'num_2']",congruent,stim,0,7,7,7,,,,,,,25.790884600020945,225.55333340005018,2025-02-28_09:29:37.319161,0.4429146000184119,26.233807699987665,225.9962476999499,2025-02-28_09:29:37.762496,images/rrrrr.png,test,644299,001,7,right,right,True,0.4202030999585986,1.7146568281826147,,,,,,,,,,,,644299,001,True,2025-02-28_092557.483234,KidFlanker,2022.2.5,1969-12-31_160005.717063,
images/llrll.png,"['right', '2', 'num_2']",incongruent,stim,0,8,8,8,,,,,,,28.5042069000192,228.26665799994953,2025-02-28_09:29:40.032793,0.5188672998920083,29.023087500128895,228.78553100000136,2025-02-28_09:29:40.551162,images/llrll.png,test,644299,001,8,right,right,True,0.49477469990961254,2.304103283163239,,,,,,,,,,,,644299,001,True,2025-02-28_092557.483234,KidFlanker,2022.2.5,1969-12-31_160005.717063,
images/lllll.png,"['left', '1', 'num_1']",congruent,stim,0,9,9,9,,,,,,,31.882435000035912,231.64488400006667,2025-02-28_09:29:43.411106,0.51787169999443,32.40031710010953,232.16275909985416,2025-02-28_09:29:43.929030,images/lllll.png,test,644299,001,9,left,left,True,0.4947953999508172,1.5010645879747062,,,,,,,,,,,,644299,001,True,2025-02-28_092557.483234,KidFlanker,2022.2.5,1969-12-31_160005.717063,
images/lllll.png,"['left', '1', 'num_1']",congruent,stim,0,10,10,10,,,,,,,34.45042599993758,234.21288629993796,2025-02-28_09:29:45.978835,0.5983456000685692,35.04880290012807,234.81125120003708,2025-02-28_09:29:46.577288,images/lllll.png,test,644299,001,10,left,left,True,0.5735749001614749,1.9820700803876223,,,,,,,,,,,,644299,001,True,2025-02-28_092557.483234,KidFlanker,2022.2.5,1969-12-31_160005.717063,
images/lllll.png,"['left', '1', 'num_1']",congruent,stim,0,11,11,11,,,,,,,37.58332380000502,237.34577209991403,2025-02-28_09:29:49.111143,0.4553958000615239,38.038729100022465,237.8011708999984,2025-02-28_09:29:49.567395,images/lllll.png,test,644299,001,11,left,left,True,0.4302920000627637,1.8306344468714086,,,,,,,,,,,,644299,001,True,2025-02-28_092557.483234,KidFlanker,2022.2.5,1969-12-31_160005.717063,
images/rrrrr.png,"['right', '2', 'num_2']",congruent,stim,0,12,12,12,,,,,,,40.424232500139624,240.18668669997714,2025-02-28_09:29:51.951869,0.43617899995297194,40.8604159001261,240.62285629985854,2025-02-28_09:29:52.389060,images/rrrrr.png,test,644299,001,12,right,right,True,0.4134388000238687,1.9644733238786851,,,,,,,,,,,,644299,001,True,2025-02-28_092557.483234,KidFlanker,2022.2.5,1969-12-31_160005.717063,
images/llrll.png,"['right', '2', 'num_2']",incongruent,stim,0,13,13,13,,,,,,,43.378697799984366,243.1411462998949,2025-02-28_09:29:54.907125,0.4398572000209242,43.81855970015749,243.5809998998884,2025-02-28_09:29:55.347213,images/llrll.png,test,644299,001,13,right,right,True,0.41703630005940795,1.7066363479956475,,,,,,,,,,,,644299,001,True,2025-02-28_092557.483234,KidFlanker,2022.2.5,1969-12-31_160005.717063,
images/llrll.png,"['right', '2', 'num_2']",incongruent,stim,0,14,14,14,,,,,,,46.0784545999486,245.84090489987284,2025-02-28_09:29:57.607109,0.5451612998731434,46.62362530012615,246.38606639998034,2025-02-28_09:29:58.152249,images/llrll.png,test,644299,001,14,right,right,True,0.5224515998270363,2.399619119854194,,,,,,,,,,,,644299,001,True,2025-02-28_092557.483234,KidFlanker,2022.2.5,1969-12-31_160005.717063,
images/llrll.png,"['right', '2', 'num_2']",incongruent,stim,0,15,15,15,,,,,,,49.572268899995834,249.33471919992007,2025-02-28_09:30:01.100542,0.517960200086236,50.09023790014908,249.8526788998861,2025-02-28_09:30:01.618117,images/llrll.png,test,644299,001,15,right,right,True,0.49541560001671314,1.5384771751284387,,,,,,,,,,,,644299,001,True,2025-02-28_092557.483234,KidFlanker,2022.2.5,1969-12-31_160005.717063,
images/lllll.png,"['left', '1', 'num_1']",congruent,stim,0,16,16,16,,,,,,,52.18264180002734,251.94508929993026,2025-02-28_09:30:03.711283,0.6069656000472605,52.789616700029,252.5520577998832,2025-02-28_09:30:04.318183,images/lllll.png,test,644299,001,16,left,left,True,0.5844894999172539,2.1097679270280834,,,,,,,,,,,,644299,001,True,2025-02-28_092557.483234,KidFlanker,2022.2.5,1969-12-31_160005.717063,
images/rrlrr.png,"['left', '1', 'num_1']",incongruent,stim,0,17,17,17,,,,,,,55.45321219996549,255.21566469990648,2025-02-28_09:30:06.981846,0.6692925000097603,56.122513400157914,255.88495439989492,2025-02-28_09:30:07.650578,images/rrlrr.png,test,644299,001,17,left,left,True,0.6465936999302357,1.7523527905950107,,,,,,,,,,,,644299,001,True,2025-02-28_092557.483234,KidFlanker,2022.2.5,1969-12-31_160005.717063,
images/llrll.png,"['right', '2', 'num_2']",incongruent,stim,0,18,18,18,,,,,,,58.423954400001094,258.1864048000425,2025-02-28_09:30:09.951805,0.4255681000649929,58.84953190013766,258.61197369988076,2025-02-28_09:30:10.377609,images/llrll.png,test,644299,001,18,right,right,True,0.4025526999030262,1.7797930480802706,,,,,,,,,,,,644299,001,True,2025-02-28_092557.483234,KidFlanker,2022.2.5,1969-12-31_160005.717063,
images/llrll.png,"['right', '2', 'num_2']",incongruent,stim,0,19,19,19,,,,,,,61.18153079994954,260.943983099889,2025-02-28_09:30:12.709252,0.6195704999845475,61.80110040004365,261.56354380003177,2025-02-28_09:30:13.329494,images/llrll.png,test,644299,001,19,right,right,True,0.5967731999699026,2.421985687614514,,,,,,,,,,,,644299,001,True,2025-02-28_092557.483234,KidFlanker,2022.2.5,1969-12-31_160005.717063,
